File: XRD-OCQD.txt
10	333
10.05	325
10.1	289
10.15	286
10.2	281
10.25	280
10.3	294
10.35	263
10.4	252
10.45	269
10.5	234
10.55	167
10.6	195
10.65	167
10.7	161
10.75	183
10.8	180
10.85	177
10.9	152
10.95	165
11	160
11.05	158
11.1	181
11.15	165
11.2	166
11.25	163
11.3	153
11.35	165
11.4	161
11.45	167
11.5	171
11.55	166
11.6	180
11.65	172
11.7	163
11.75	172
11.8	173
11.85	171
11.9	177
11.95	164
12	166
12.05	186
12.1	182
12.15	170
12.2	165
12.25	186
12.3	171
12.35	179
12.4	156
12.45	163
12.5	177
12.55	189
12.6	190
12.65	197
12.7	186
12.75	187
12.8	170
12.85	191
12.9	181
12.95	193
13	185
13.05	164
13.1	190
13.15	200
13.2	171
13.25	203
13.3	204
13.35	212
13.4	206
13.45	205
13.5	210
13.55	207
13.6	206
13.65	201
13.7	192
13.75	202
13.8	206
13.85	193
13.9	182
13.95	174
14	186
14.05	210
14.1	214
14.15	166
14.2	209
14.25	199
14.3	181
14.35	222
14.4	218
14.45	189
14.5	223
14.55	224
14.6	181
14.65	200
14.7	186
14.75	201
14.8	194
14.85	184
14.9	197
14.95	194
15	213
15.05	220
15.1	207
15.15	213
15.2	197
15.25	222
15.3	225
15.35	221
15.4	221
15.45	205
15.5	215
15.55	212
15.6	222
15.65	233
15.7	211
15.75	219
15.8	231
15.85	221
15.9	219
15.95	236
16	229
16.05	226
16.1	245
16.15	240
16.2	246
16.25	238
16.3	234
16.35	223
16.4	229
16.45	211
16.5	232
16.55	241
16.6	226
16.65	210
16.7	235
16.75	234
16.8	226
16.85	219
16.9	241
16.95	235
17	228
17.05	225
17.1	230
17.15	265
17.2	228
17.25	248
17.3	320
17.35	309
17.4	369
17.45	389
17.5	315
17.55	293
17.6	338
17.65	377
17.7	381
17.75	399
17.8	371
17.85	300
17.9	248
17.95	233
18	251
18.05	238
18.1	213
18.15	240
18.2	230
18.25	242
18.3	256
18.35	254
18.4	254
18.45	319
18.5	336
18.55	319
18.6	326
18.65	285
18.7	283
18.75	272
18.8	245
18.85	254
18.9	227
18.95	249
19	212
19.05	224
19.1	239
19.15	252
19.2	226
19.25	237
19.3	244
19.35	255
19.4	292
19.45	315
19.5	339
19.55	487
19.6	530
19.65	462
19.7	387
19.75	292
19.8	260
19.85	249
19.9	233
19.95	222
20	260
20.05	243
20.1	229
20.15	234
20.2	247
20.25	229
20.3	264
20.35	254
20.4	234
20.45	254
20.5	258
20.55	256
20.6	240
20.65	237
20.7	228
20.75	266
20.8	228
20.85	223
20.9	239
20.95	218
21	240
21.05	254
21.1	240
21.15	244
21.2	260
21.25	258
21.3	251
21.35	251
21.4	240
21.45	249
21.5	218
21.55	211
21.6	237
21.65	241
21.7	215
21.75	220
21.8	228
21.85	242
21.9	205
21.95	200
22	268
22.05	257
22.1	222
22.15	239
22.2	246
22.25	230
22.3	225
22.35	257
22.4	250
22.45	248
22.5	271
22.55	247
22.6	248
22.65	228
22.7	238
22.75	238
22.8	224
22.85	236
22.9	239
22.95	240
23	225
23.05	246
23.1	250
23.15	239
23.2	240
23.25	249
23.3	266
23.35	242
23.4	267
23.45	256
23.5	238
23.55	260
23.6	230
23.65	249
23.7	241
23.75	269
23.8	213
23.85	196
23.9	240
23.95	225
24	216
24.05	270
24.1	245
24.15	225
24.2	237
24.25	244
24.3	240
24.35	256
24.4	260
24.45	246
24.5	218
24.55	239
24.6	239
24.65	232
24.7	229
24.75	235
24.8	225
24.85	205
24.9	240
24.95	216
25	209
25.05	231
25.1	229
25.15	225
25.2	236
25.25	224
25.3	210
25.35	224
25.4	239
25.45	213
25.5	262
25.55	218
25.6	229
25.65	232
25.7	213
25.75	234
25.8	251
25.85	239
25.9	232
25.95	247
26	258
26.05	229
26.1	272
26.15	301
26.2	296
26.25	254
26.3	254
26.35	257
26.4	235
26.45	213
26.5	243
26.55	249
26.6	276
26.65	260
26.7	275
26.75	258
26.8	216
26.85	227
26.9	219
26.95	235
27	251
27.05	250
27.1	250
27.15	264
27.2	224
27.25	254
27.3	218
27.35	228
27.4	236
27.45	220
27.5	233
27.55	227
27.6	238
27.65	237
27.7	220
27.75	239
27.8	234
27.85	242
27.9	223
27.95	239
28	204
28.05	216
28.1	226
28.15	242
28.2	241
28.25	256
28.3	272
28.35	304
28.4	324
28.45	326
28.5	279
28.55	252
28.6	278
28.65	233
28.7	268
28.75	236
28.8	290
28.85	244
28.9	272
28.95	241
29	229
29.05	255
29.1	253
29.15	239
29.2	265
29.25	248
29.3	296
29.35	297
29.4	269
29.45	273
29.5	255
29.55	276
29.6	268
29.65	207
29.7	252
29.75	240
29.8	261
29.85	213
29.9	220
29.95	215
30	254
30.05	213
30.1	264
30.15	256
30.2	263
30.25	235
30.3	259
30.35	224
30.4	238
30.45	239
30.5	230
30.55	223
30.6	282
30.65	228
30.7	251
30.75	273
30.8	248
30.85	268
30.9	237
30.95	264
31	245
31.05	263
31.1	191
31.15	266
31.2	245
31.25	240
31.3	265
31.35	266
31.4	239
31.45	251
31.5	261
31.55	240
31.6	272
31.65	261
31.7	278
31.75	276
31.8	277
31.85	268
31.9	273
31.95	271
32	304
32.05	255
32.1	248
32.15	243
32.2	243
32.25	279
32.3	236
32.35	260
32.4	275
32.45	225
32.5	221
32.55	270
32.6	239
32.65	268
32.7	232
32.75	256
32.8	223
32.85	268
32.9	266
32.95	291
33	282
33.05	267
33.1	257
33.15	252
33.2	262
33.25	277
33.3	275
33.35	291
33.4	338
33.45	291
33.5	284
33.55	311
33.6	279
33.65	271
33.7	262
33.75	257
33.8	260
33.85	282
33.9	302
33.95	296
34	270
34.05	264
34.1	251
34.15	250
34.2	239
34.25	269
34.3	257
34.35	222
34.4	236
34.45	247
34.5	259
34.55	254
34.6	236
34.65	246
34.7	229
34.75	229
34.8	248
34.85	270
34.9	275
34.95	235
35	241
35.05	267
35.1	273
35.15	251
35.2	241
35.25	292
35.3	246
35.35	260
35.4	257
35.45	237
35.5	247
35.55	249
35.6	257
35.65	241
35.7	245
35.75	249
35.8	256
35.85	219
35.9	220
35.95	261
36	226
36.05	240
36.1	236
36.15	233
36.2	236
36.25	252
36.3	217
36.35	210
36.4	250
36.45	230
36.5	252
36.55	222
36.6	256
36.65	217
36.7	247
36.75	216
36.8	234
36.85	207
36.9	216
36.95	274
37	217
37.05	241
37.1	223
37.15	240
37.2	227
37.25	274
37.3	254
37.35	223
37.4	206
37.45	218
37.5	234
37.55	241
37.6	211
37.65	234
37.7	219
37.75	234
37.8	241
37.85	204
37.9	225
37.95	236
38	236
38.05	237
38.1	247
38.15	254
38.2	300
38.25	307
38.3	398
38.35	612
38.4	870
38.45	903
38.5	751
38.55	518
38.6	361
38.65	277
38.7	247
38.75	254
38.8	240
38.85	240
38.9	224
38.95	213
39	204
39.05	219
39.1	214
39.15	229
39.2	207
39.25	222
39.3	218
39.35	233
39.4	257
39.45	240
39.5	232
39.55	233
39.6	232
39.65	196
39.7	208
39.75	220
39.8	202
39.85	212
39.9	203
39.95	210
40	202
40.05	214
40.1	185
40.15	232
40.2	212
40.25	228
40.3	181
40.35	184
40.4	181
40.45	192
40.5	182
40.55	195
40.6	203
40.65	207
40.7	205
40.75	214
40.8	189
40.85	200
40.9	201
40.95	180
41	206
41.05	205
41.1	207
41.15	187
41.2	213
41.25	195
41.3	214
41.35	189
41.4	182
41.45	213
41.5	210
41.55	203
41.6	187
41.65	204
41.7	182
41.75	172
41.8	175
41.85	202
41.9	197
41.95	207
42	196
42.05	194
42.1	191
42.15	171
42.2	191
42.25	185
42.3	186
42.35	187
42.4	182
42.45	175
42.5	173
42.55	201
42.6	183
42.65	183
42.7	178
42.75	160
42.8	212
42.85	200
42.9	177
42.95	189
43	223
43.05	179
43.1	190
43.15	195
43.2	185
43.25	196
43.3	178
43.35	151
43.4	190
43.45	172
43.5	188
43.55	178
43.6	193
43.65	162
43.7	177
43.75	189
43.8	200
43.85	185
43.9	174
43.95	175
44	179
44.05	208
44.1	197
44.15	188
44.2	219
44.25	211
44.3	215
44.35	196
44.4	198
44.45	239
44.5	294
44.55	400
44.6	426
44.65	563
44.7	514
44.75	455
44.8	366
44.85	296
44.9	270
44.95	192
45	191
45.05	199
45.1	197
45.15	154
45.2	171
45.25	190
45.3	175
45.35	178
45.4	183
45.45	198
45.5	171
45.55	159
45.6	166
45.65	163
45.7	184
45.75	192
45.8	153
45.85	173
45.9	168
45.95	175
46	155
46.05	151
46.1	172
46.15	157
46.2	162
46.25	173
46.3	167
46.35	156
46.4	151
46.45	180
46.5	161
46.55	162
46.6	164
46.65	169
46.7	146
46.75	173
46.8	152
46.85	147
46.9	148
46.95	145
47	148
47.05	163
47.1	139
47.15	158
47.2	155
47.25	146
47.3	150
47.35	165
47.4	155
47.45	141
47.5	146
47.55	158
47.6	141
47.65	148
47.7	166
47.75	139
47.8	123
47.85	167
47.9	149
47.95	147
48	152
48.05	141
48.1	140
48.15	133
48.2	152
48.25	169
48.3	160
48.35	133
48.4	142
48.45	161
48.5	152
48.55	144
48.6	148
48.65	154
48.7	143
48.75	176
48.8	135
48.85	143
48.9	122
48.95	133
49	126
49.05	169
49.1	138
49.15	139
49.2	140
49.25	137
49.3	138
49.35	124
49.4	163
49.45	144
49.5	121
49.55	130
49.6	129
49.65	113
49.7	142
49.75	134
49.8	150
49.85	119
49.9	154
49.95	139
50	129
50.05	140
50.1	137
50.15	135
50.2	110
50.25	129
50.3	134
50.35	117
50.4	133
50.45	112
50.5	134
50.55	136
50.6	137
50.65	123
50.7	118
50.75	137
50.8	97
50.85	131
50.9	129
50.95	146
51	136
51.05	130
51.1	130
51.15	111
51.2	148
51.25	114
51.3	139
51.35	117
51.4	126
51.45	142
51.5	123
51.55	138
51.6	104
51.65	123
51.7	135
51.75	149
51.8	125
51.85	131
51.9	134
51.95	113
52	137
52.05	103
52.1	110
52.15	106
52.2	121
52.25	107
52.3	102
52.35	119
52.4	116
52.45	140
52.5	140
52.55	125
52.6	111
52.65	132
52.7	116
52.75	123
52.8	121
52.85	116
52.9	111
52.95	106
53	120
53.05	112
53.1	112
53.15	130
53.2	115
53.25	125
53.3	129
53.35	121
53.4	122
53.45	118
53.5	120
53.55	113
53.6	113
53.65	130
53.7	121
53.75	120
53.8	112
53.85	113
53.9	129
53.95	126
54	120
54.05	108
54.1	108
54.15	110
54.2	128
54.25	126
54.3	135
54.35	118
54.4	120
54.45	118
54.5	124
54.55	108
54.6	95
54.65	96
54.7	116
54.75	95
54.8	94
54.85	121
54.9	116
54.95	121
55	107
55.05	123
55.1	103
55.15	99
55.2	112
55.25	118
55.3	115
55.35	103
55.4	107
55.45	118
55.5	98
55.55	97
55.6	103
55.65	88
55.7	107
55.75	108
55.8	105
55.85	127
55.9	93
55.95	89
56	113
56.05	102
56.1	90
56.15	107
56.2	78
56.25	90
56.3	101
56.35	94
56.4	125
56.45	108
56.5	94
56.55	97
56.6	108
56.65	117
56.7	123
56.75	104
56.8	92
56.85	109
56.9	90
56.95	95
57	97
57.05	107
57.1	98
57.15	111
57.2	101
57.25	117
57.3	97
57.35	94
57.4	85
57.45	90
57.5	116
57.55	108
57.6	101
57.65	115
57.7	93
57.75	94
57.8	98
57.85	100
57.9	95
57.95	84
58	107
58.05	98
58.1	94
58.15	95
58.2	90
58.25	90
58.3	95
58.35	90
58.4	89
58.45	91
58.5	80
58.55	105
58.6	90
58.65	108
58.7	72
58.75	100
58.8	92
58.85	94
58.9	103
58.95	99
59	83
59.05	94
59.1	88
59.15	87
59.2	82
59.25	86
59.3	85
59.35	88
59.4	87
59.45	86
59.5	83
59.55	89
59.6	95
59.65	90
59.7	99
59.75	90
59.8	86
59.85	98
59.9	93
59.95	95
60	91
60.05	90
60.1	86
60.15	88
60.2	83
60.25	90
60.3	81
60.35	84
60.4	82
60.45	85
60.5	88
60.55	76
60.6	83
60.65	98
60.7	89
60.75	96
60.8	91
60.85	95
60.9	84
60.95	89
61	79
61.05	84
61.1	84
61.15	80
61.2	106
61.25	78
61.3	86
61.35	92
61.4	102
61.45	85
61.5	64
61.55	82
61.6	86
61.65	78
61.7	76
61.75	76
61.8	93
61.85	78
61.9	83
61.95	73
62	95
62.05	100
62.1	83
62.15	84
62.2	85
62.25	91
62.3	67
62.35	95
62.4	83
62.45	91
62.5	83
62.55	84
62.6	80
62.65	67
62.7	82
62.75	66
62.8	97
62.85	82
62.9	78
62.95	68
63	73
63.05	74
63.1	78
63.15	90
63.2	80
63.25	79
63.3	88
63.35	77
63.4	66
63.45	71
63.5	78
63.55	88
63.6	78
63.65	54
63.7	76
63.75	88
63.8	79
63.85	82
63.9	69
63.95	83
64	74
64.05	78
64.1	85
64.15	76
64.2	68
64.25	75
64.3	77
64.35	61
64.4	66
64.45	69
64.5	79
64.55	73
64.6	75
64.65	79
64.7	70
64.75	70
64.8	82
64.85	70
64.9	80
64.95	97
65	102
65.05	109
65.1	120
65.15	128
65.2	94
65.25	121
65.3	90
65.35	99
65.4	92
65.45	66
65.5	61
65.55	75
65.6	56
65.65	72
65.7	74
65.75	72
65.8	77
65.85	80
65.9	76
65.95	77
66	81
66.05	68
66.1	65
66.15	59
66.2	78
66.25	75
66.3	68
66.35	54
66.4	75
66.45	68
66.5	70
66.55	83
66.6	67
66.65	71
66.7	54
66.75	88
66.8	72
66.85	76
66.9	67
66.95	69
67	64
67.05	71
67.1	70
67.15	68
67.2	78
67.25	71
67.3	68
67.35	73
67.4	70
67.45	73
67.5	69
67.55	71
67.6	62
67.65	69
67.7	71
67.75	60
67.8	65
67.85	68
67.9	63
67.95	80
68	62
68.05	58
68.1	71
68.15	64
68.2	74
68.25	76
68.3	65
68.35	77
68.4	57
68.45	66
68.5	67
68.55	67
68.6	56
68.65	70
68.7	69
68.75	74
68.8	68
68.85	54
68.9	56
68.95	69
69	77
69.05	69
69.1	62
69.15	54
69.2	72
69.25	70
69.3	42
69.35	49
69.4	75
69.45	61
69.5	62
69.55	54
69.6	58
69.65	54
69.7	71
69.75	67
69.8	64
69.85	75
69.9	55
69.95	57
70	69
70.05	66
70.1	54
70.15	72
70.2	51
70.25	78
70.3	65
70.35	63
70.4	65
70.45	74
70.5	76
70.55	65
70.6	69
70.65	61
70.7	62
70.75	73
70.8	62
70.85	61
70.9	48
70.95	75
71	66
71.05	58
71.1	74
71.15	71
71.2	56
71.25	58
71.3	55
71.35	70
71.4	64
71.45	73
71.5	58
71.55	67
71.6	45
71.65	60
71.7	59
71.75	65
71.8	74
71.85	60
71.9	85
71.95	59
72	60
72.05	69
72.1	63
72.15	68
72.2	63
72.25	67
72.3	63
72.35	49
72.4	63
72.45	60
72.5	61
72.55	57
72.6	64
72.65	61
72.7	61
72.75	70
72.8	62
72.85	76
72.9	55
72.95	73
73	52
73.05	57
73.1	70
73.15	80
73.2	61
73.25	73
73.3	73
73.35	65
73.4	62
73.45	59
73.5	77
73.55	60
73.6	65
73.65	52
73.7	52
73.75	56
73.8	56
73.85	48
73.9	51
73.95	50
74	77
74.05	52
74.1	72
74.15	46
74.2	74
74.25	57
74.3	59
74.35	57
74.4	60
74.45	54
74.5	63
74.55	80
74.6	73
74.65	62
74.7	64
74.75	65
74.8	70
74.85	70
74.9	74
74.95	67
75	52
75.05	70
75.1	50
75.15	66
75.2	53
75.25	69
75.3	67
75.35	50
75.4	65
75.45	66
75.5	57
75.55	50
75.6	46
75.65	63
75.7	55
75.75	56
75.8	66
75.85	62
75.9	47
75.95	76
76	68
76.05	64
76.1	60
76.15	51
76.2	56
76.25	66
76.3	59
76.35	53
76.4	52
76.45	63
76.5	65
76.55	48
76.6	58
76.65	60
76.7	54
76.75	64
76.8	68
76.85	70
76.9	50
76.95	53
77	68
77.05	58
77.1	64
77.15	54
77.2	63
77.25	53
77.3	54
77.35	57
77.4	68
77.45	58
77.5	44
77.55	70
77.6	65
77.65	53
77.7	50
77.75	47
77.8	63
77.85	64
77.9	74
77.95	84
78	71
78.05	92
78.1	82
78.15	123
78.2	125
78.25	150
78.3	119
78.35	121
78.4	102
78.45	87
78.5	110
78.55	74
78.6	66
78.65	68
78.7	76
78.75	73
78.8	62
78.85	61
78.9	55
78.95	59
79	57
79.05	65
79.1	66
79.15	48
79.2	64
79.25	45
79.3	64
79.35	64
79.4	70
79.45	55
79.5	70
79.55	62
79.6	56
79.65	58
79.7	59
79.75	61
79.8	58
79.85	57
79.9	66
79.95	56
80	66